Folder: TEMPEST/Data/aquifer_well/well_test_202509/Raw Data

Note: Data/aquifer_well/well_test_202509/Raw Data/COMPASS_Synoptic_CB_MonMon_202505_Cl.txt
Inj.	Injection Name	Type 	Ret.Time	Amount	Rel.Area 	Area	Height
No.	Selected Peak:		min	µg/mL	%	µS*min	µS
			CD	CD	CD	CD	CD
			IC-Cl	IC-Cl	IC-Cl	IC-Cl	IC-Cl
1	Lab Blank	Unknown	n.a.	n.a.	n.a.	n.a.	n.a.
2	Lab Blank	Unknown	n.a.	n.a.	n.a.	n.a.	n.a.
3	Lab Blank	Unknown	n.a.	n.a.	n.a.	n.a.	n.a.
4	Lab Blank	Unknown	n.a.	n.a.	n.a.	n.a.	n.a.
5	Standard 1	Calibration Standard	3.303 	4.5399 	93.89 	5.3514 	46.92 
6	Standard 2	Calibration Standard	3.300 	9.4254 	93.42 	11.1100 	96.45 
7	Standard 3	Calibration Standard	3.297 	19.2847 	93.21 	22.7316 	195.01 
8	Standard 4	Calibration Standard	3.280 	99.6873 	93.08 	117.5053 	971.74 
9	Standard 5	Calibration Standard	3.273 	200.2681 	93.06 	236.0640 	1888.00 
10	Lab Blank	Unknown	n.a.	n.a.	n.a.	n.a.	n.a.
11	Lab Blank	Unknown	n.a.	n.a.	n.a.	n.a.	n.a.
12	1_GCW_202505_UP_LysA_10cm	Unknown	3.310 	7.5402 	1.70 	0.1778 	1.67 
13	2_GCW_202505_UP_LysA_20cm	Unknown	3.310 	0.5917 	0.16 	0.0140 	0.17 
14	3_GCW_202505_UP_LysB_10cm	Unknown	3.310 	0.7101 	0.20 	0.0167 	0.21 
15	4_GCW_202505_UP_LysB_20cm	Unknown	3.307 	0.2110 	0.06 	0.0050 	0.08 
16	5_GCW_202505_UP_LysC_10cm	Unknown	3.307 	0.6179 	0.17 	0.0146 	0.20 
17	6_GCW_202505_UP_LysC_20cm	Unknown	3.293 	1.6986 	0.55 	0.0400 	0.42 
18	7_GCW_202505_TR_LysA_20cm	Unknown	3.303 	92.2238 	21.09 	2.1742 	19.46 
19	8_GCW_202505_TR_LysA_45cm	Unknown	3.300 	793.6169 	70.89 	18.7094 	163.06 
20	9_GCW_202505_TR_LysB_10cm	Unknown	3.303 	216.0618 	37.67 	5.0936 	45.24 
21	10_GCW_202505_TR_LysB_20cm	Unknown	3.303 	192.4894 	34.77 	4.5379 	40.35 
22	10_GCW_202505_TR_LysB_20cm_dup	Unknown	3.307 	190.9819 	34.60 	4.5024 	39.94 
23	11_GCW_202505_TR_LysB_45cm	Unknown	3.300 	559.7064 	61.76 	13.1950 	115.94 
24	11_GCW_202505_TR_LysB_45cm_spk	Spiked	3.300 	559.4522 	57.56 	13.1890 	115.90 
25	Standard 1	Check Standard	3.300 	4.7136 	94.03 	5.5561 	48.43 
26	12_GCW_202505_TR_LysC_10cm	Unknown	3.307 	188.4644 	35.89 	4.4430 	39.35 
27	13_GCW_202505_TR_LysC_20cm	Unknown	3.300 	449.1283 	53.92 	10.5881 	93.47 
28	14_GCW_202505_TR_LysC_45cm	Unknown	3.290 	2479.6590 	88.12 	58.4575 	498.72 
29	15_GCW_202505_WC_LysA_10cm	Unknown	3.287 	5516.7583 	82.90 	65.0282 	548.76 
30	16_GCW_202505_WC_LysA_20cm	Unknown	3.283 	5874.2238 	85.96 	69.2418 	585.88 
31	Standard 3	Check Standard	3.300 	19.0296 	93.14 	22.4310 	194.00 
32	Lab Blank	Unknown	n.a.	n.a.	n.a.	n.a.	n.a.
33	17_GCW_202505_WC_LysA_45cm	Unknown	3.290 	6192.0803 	91.26 	72.9885 	621.10 
34	18_GCW_202505_WC_LysB_10cm	Unknown	3.293 	4616.1352 	82.30 	54.4122 	463.43 
35	19_GCW_202505_WC_LysB_20cm	Unknown	3.290 	5546.8504 	85.59 	65.3829 	555.05 
36	20_GCW_202505_WC_LysB_45cm	Unknown	3.290 	5600.6403 	89.32 	66.0170 	560.02 
37	20_GCW_202505_WC_LysB_45cm_dup	Unknown	3.290 	5562.8832 	89.30 	65.5719 	555.45 
38	21_GCW_202505_WC_LysC_10cm	Unknown	3.293 	4100.9244 	80.90 	48.3392 	410.94 
39	21_GCW_202505_WC_LysC_10cm_spk	Spiked	3.293 	4018.5535 	78.65 	47.3683 	402.94 
40	Standard 2	Check Standard	3.303 	9.7705 	93.55 	11.5168 	100.11 
41	Lab Blan

Note: Data/aquifer_well/well_test_202509/Raw Data/COMPASS_Synoptic_CB_MonMon_202505_SO4.txt
Inj.	Injection Name	Type 	Ret.Time	Amount	Rel.Area 	Area	Height
No.	Selected Peak:		min	µg/mL	%	µS*min	µS
			CD	CD	CD	CD	CD
			IC-SO4	IC-SO4	IC-SO4	IC-SO4	IC-SO4
1	Lab Blank	Unknown	n.a.	n.a.	n.a.	n.a.	n.a.
2	Lab Blank	Unknown	n.a.	n.a.	n.a.	n.a.	n.a.
3	Lab Blank	Unknown	n.a.	n.a.	n.a.	n.a.	n.a.
4	Lab Blank	Unknown	n.a.	n.a.	n.a.	n.a.	n.a.
5	Standard 1	Calibration Standard	4.500 	0.3966 	6.11 	0.3484 	2.43 
6	Standard 2	Calibration Standard	4.493 	0.8910 	6.58 	0.7829 	5.31 
7	Standard 3	Calibration Standard	4.493 	1.8859 	6.79 	1.6571 	10.89 
8	Standard 4	Calibration Standard	4.450 	9.9396 	6.92 	8.7335 	53.62 
9	Standard 5	Calibration Standard	4.407 	20.0496 	6.94 	17.6167 	99.51 
10	Lab Blank	Unknown	n.a.	n.a.	n.a.	n.a.	n.a.
11	Lab Blank	Unknown	n.a.	n.a.	n.a.	n.a.	n.a.
12	1_GCW_202505_UP_LysA_10cm	Unknown	4.503 	1.3011 	0.22 	0.0229 	0.13 
13	2_GCW_202505_UP_LysA_20cm	Unknown	4.497 	0.3311 	0.07 	0.0058 	0.04 
14	3_GCW_202505_UP_LysB_10cm	Unknown	4.503 	1.5783 	0.33 	0.0277 	0.18 
15	4_GCW_202505_UP_LysB_20cm	Unknown	4.503 	1.6303 	0.34 	0.0286 	0.17 
16	5_GCW_202505_UP_LysC_10cm	Unknown	4.490 	0.2337 	0.05 	0.0041 	0.03 
17	6_GCW_202505_UP_LysC_20cm	Unknown	4.353 	16.2828 	3.95 	0.2861 	0.00 
18	7_GCW_202505_TR_LysA_20cm	Unknown	4.497 	27.6833 	4.72 	0.4865 	3.27 
19	8_GCW_202505_TR_LysA_45cm	Unknown	4.503 	2.9065 	0.19 	0.0511 	0.34 
20	9_GCW_202505_TR_LysB_10cm	Unknown	4.497 	36.8506 	4.79 	0.6476 	4.33 
21	10_GCW_202505_TR_LysB_20cm	Unknown	4.497 	43.9815 	5.92 	0.7729 	5.15 
22	10_GCW_202505_TR_LysB_20cm_dup	Unknown	4.500 	44.0932 	5.95 	0.7749 	5.15 
23	11_GCW_202505_TR_LysB_45cm	Unknown	4.497 	18.2438 	1.50 	0.3206 	2.14 
24	11_GCW_202505_TR_LysB_45cm_spk	Spiked	4.490 	108.1106 	8.29 	1.8998 	12.35 
25	Standard 1	Check Standard	4.500 	0.4016 	5.97 	0.3529 	2.44 
26	12_GCW_202505_TR_LysC_10cm	Unknown	4.500 	38.6898 	5.49 	0.6799 	4.55 
27	13_GCW_202505_TR_LysC_20cm	Unknown	4.490 	80.4013 	7.20 	1.4129 	9.25 
28	14_GCW_202505_TR_LysC_45cm	Unknown	4.497 	13.0954 	0.35 	0.2301 	1.53 
29	15_GCW_202505_WC_LysA_10cm	Unknown	4.450 	931.8163 	10.44 	8.1875 	50.48 
30	16_GCW_202505_WC_LysA_20cm	Unknown	4.457 	669.4087 	7.30 	5.8818 	37.02 
31	Standard 3	Check Standard	4.470 	1.8807 	6.86 	1.6525 	10.99 
32	Lab Blank	Unknown	n.a.	n.a.	n.a.	n.a.	n.a.
33	17_GCW_202505_WC_LysA_45cm	Unknown	4.490 	178.8883 	1.97 	1.5718 	10.32 
34	18_GCW_202505_WC_LysB_10cm	Unknown	4.460 	715.2364 	9.51 	6.2845 	39.73 
35	19_GCW_202505_WC_LysB_20cm	Unknown	4.463 	656.5758 	7.55 	5.7690 	36.64 
36	20_GCW_202505_WC_LysB_45cm	Unknown	4.480 	309.2304 	3.68 	2.7171 	17.69 
37	20_GCW_202505_WC_LysB_45cm_dup	Unknown	4.483 	306.4916 	3.67 	2.6930 	17.54 
38	21_GCW_202505_WC_LysC_10cm	Unknown	4.463 	693.5916 	10.20 	6.0943 	38.45 
39	21_GCW_202505_WC_LysC_10cm_spk	Spiked	4.453 	865.9726 	12.63 	7.6089 	47.39 
40	Standard 2	Check Standard	4.493 	0.9033 	6.45 	0.7937 	5.38 
41	Lab Blank	Unknown	n.a.	n.a.	n.a.	n.a.	n.a.
42	22_GCW_202505_WC_LysC_20cm	Unknown	4.463 	768.9106 	9.47

Note: README.md
# TEMPESTX
Hopple exclusion experiment in TEMPEST plots

File: COMPASS_TEMPEST_WellTest_AQ600_Data.csv
Date Time,pH (pH) (944309),pH mV (mV) (944309),ORP (mV) (944309),RDO Concentration (mg/L) (1147009),RDO Saturation (%Sat) (1147009),Oxygen Partial Pressure (Torr) (1147009),Actual Conductivity (µS/cm) (951425),Specific Conductivity (µS/cm) (951425),Salinity (PSU) (951425),Resistivity (Ω⋅cm) (951425),Density (g/cm³) (951425),Total Dissolved Solids (ppt) (951425),Temperature (°C) (951973),External Voltage (V) (951973),Battery Capacity (%) (951973),Barometric Pressure (mm Hg) (951973),Pressure (psi) (948746),Depth (cm) (948746)
9/4/2025 11:17,6.49573,-18.0531,52.6087,8.606227,105.6606,164.377,2.58297,2.41987,0.000197676,387150.97,0.9960858,0.001572917,28.5288,0.198,85,796.8252,-0.729188,-50.7319
9/4/2025 11:21,6.5609,-21.9417,82.0009,8.139626,100.535,157.2076,0.0549451,0.05080564,0,18200000,0.99587,3.30E-05,29.2657,0.279,85,802.0531,-0.8337517,-44.53247
9/4/2025 11:25,6.75753,-32.59659,-154.3601,0.9678147,10.1974,16.2506,192.899,209.913,0.100141,5184.05,0.9981239,0.1364435,20.7564,0.288,85,804.671,-0.668323,-31.8523
9/4/2025 11:29,6.79819,-34.55639,-161.262,0.516191,5.126548,8.174891,171.066,199.071,0.09477645,5845.71,0.998737,0.129396,17.6346,0.189,85,801.926,-0.6549406,-30.7642
9/4/2025 11:33,6.89876,-40.2403,-178.016,0.4141207,4.12502,6.53796,90.8244,106.04,0.0496827,11010.263,0.998729,0.06892586,17.4875,0.099,85,797.0127,-0.560061,-24.4245
9/4/2025 11:37,7.07906,-50.5471,-193.48,0.335067,3.32637,5.26356,138.312,162.442,0.0769849,7230.017,0.9987972,0.105587,17.223,0.054,85,795.4901,-0.5288992,-21.275
9/4/2025 11:41,7.26918,-61.8076,-197.433,0.8263223,8.190488,13.0018,143.716,168.476,0.0799132,6958.18,0.9987849,0.10951,17.30531,0.027,85,798.0628,-0.5728502,-24.9284
9/4/2025 11:45,7.308319,-64.10837,-241.2923,0.239819,2.37366,3.7687,156.876,184.179,0.0875259,6374.48,0.9988026,0.119716,17.2386,0.018,85,798.1453,-0.5728216,-24.885
9/4/2025 11:49,7.42275,-70.75072,-256.558,0.591244,5.792763,9.198342,168.068,199.868,0.09511266,5949.97,0.9989071,0.129914,16.72531,0.018,84,797.763,-0.571197,-24.1669
9/4/2025 11:53,7.422494,-70.7936,-255.023,0.239195,2.36048,3.73857,146.146,172.647,0.0819197,6842.483,0.998846,0.11222,16.9634,0.009,84,795.963,-0.529135,-20.4701
9/4/2025 11:57,7.067503,-49.9964,-199.791,5.38903,53.97236,85.94363,173.766,200.601,0.0955363,5754.86,0.9986718,0.130391,17.9962,0.027,84,801.16,-0.6268015,-28.652
9/4/2025 12:01,7.16421,-55.67074,-234.168,0.493779,4.9382,7.827124,162.361,188.7368,0.08975865,6159.1,0.998725,0.122679,17.6834,0.018,84,797.23,-0.5547533,-24.184
9/4/2025 12:05,7.408364,-69.95917,-291.7846,0.322066,3.185594,5.034305,163.6906,193.365,0.0919714,6109.09,0.998854,0.125687,16.9652,0.009,84,794.245,-0.49152,-19.199
9/4/2025 12:09,7.556929,-78.70197,-322.624,0.169768,1.675271,2.6469,160.128,189.712,0.09019097,6245.01,0.998875,0.123313,16.83538,0,84,793.9524,-0.487165,-18.7576
9/4/2025 12:13,7.628501,-82.9148,-336.088,0.1395578,1.37433,2.17373,154.277,182.985,0.0869239,6481.843,0.998881,0.11894,16.7861,0,84,794.74,-0.5028143,-19.9804
9/4/2025 12:17,7.679105,-85.8426,-333.803,0.6314028,6.1772,9.79567,169.517,202.0965,0.09618822,5899.107,0.9989266,0.131363,16.5825,0,84,796.585,-0.5442314,-23.23368
9/4/2025 12:21,7.736003,-89.2353,-358.628,0.08910447,0.8731598,1.38552,169.807,201.81,0.09605769,5889.06,0.9989033,0.131177,16.69716,0.009,84,797.185,-0.5530491,-23.94227
9/4/2025 12:25,7.67833,-85.83307,-340.205,0.0417372,0.408458,0.649091,168.903,200.7,0.09551863,5920.541,0.998901,0.130455,16.7054,0,84,798.3477,-0.5849705,-23.4583
9/4/2025 12:29,7.71029,-87.7428,-359.975,0.05190957,0.5078407,0.8084866,168.579,199.973,0.09516998,5931.928,0.998888,0.129982,16.78066,0,84,799.8405,-0.6197357,-26.208
9/4/2025 12:33,7.6898,-86.5412,-357.5166,0.048233,0.470647,0.7516366,167.654,198.749,0.0945772,5964.681,0.998883,0.129187,16.8086,0,84,802.346,-0.664806,-29.341
9/4/2025 12:37,7.68621,-86.35283,-356.2768,0.0309716,0.3021237,0.483397,166.859,197.452,0.0939518,5993.08,0.9988688,0.128344,16.888,0,84,803.883,-0.6908903,-31.44117
9/4/2025 12:41,7.55823,-78.80449,-338.062,0.06843001,0.6669736,1.068898,165.1176,195.21,0.09286507,6056.29,0.9988609,0.1268864,16.9291,0.009,84,805.2109,-0.7149191,-33.6669
9/4/2025 12:45,7.68188,-86.01427,-368.9178,0,0,-0.06325102,162.976,194.083,0.09229961,6135.86,0.9989153,0.126154,16.6087,0,84,802.683,-0.6626282,-29.9859
9/4/2025 12:49,7.744522,-89.7789,-383.976,0,0,-0.2557603,160.458,190.133,0.09039469,6232.156,0.998876,0.123586,16.8286,0,84,801.4831,-0.643438,-28.63981
9/4/2025 12:54,6.812922,-35.34317,-135.4416,4.696622,46.1738,73.75779,0.0549451,0.064132,0,18200000,0.9986887,4.17E-05,17.2318,0.009,84,802.9157,-0.8914547,-44.5772
9/4/2025 12:58,7.569975,-79.50306,-337.792,0.08576506,0.8375752,1.34011,157.822,186.509,0.08864224,6336.25,0.9988545,0.121231,16.9471,0.018,84,803.9357,-0.6958933,-33.25015
9/4/2025 13:02,7.691671,-86.77006,-360.9665,0,0,-0.3327727,158.4983,186.225,0.0885175,6309.216,0.998809,0.121046,17.2048,0.009,84,805.128,-0.7312031,-35.6187
9/4/2025 13:06,7.55864,-78.88078,-326.7558,0.0560226,0.5474815,0.8783741,156.056,183.697,0.0872866,6407.962,0.998823,0.119403,17.1219,0,84,806.268,-0.746524,-36.7392
9/4/2025 13:10,7.619561,-82.4761,-343.035,0.0392813,0.38374,0.6156211,154.208,181.6113,0.0862736,6484.751,0.998826,0.118047,17.09999,0,84,806.186,-0.7467108,-36.8663
9/4/2025 13:14,7.62151,-82.60489,-343.469,0.04046392,0.395797,0.6347531,152.965,179.952,0.08547081,6537.44,0.998817,0.116969,17.14837,0,84,805.9684,-0.7441454,-36.69066
9/4/2025 13:18,7.54437,-78.05586,-333.312,0.0762559,0.74627,1.19719,151.7526,178.358,0.08469971,6589.67,0.9988091,0.115933,17.1901,0,84,806.2534,-0.7487526,-37.29458
9/4/2025 13:22,6.65196,-26.23558,-142.9804,2.98974,29.58065,47.0726,147.485,172.77,0.081996,6780.35,0.998781,0.1123,17.3378,0,84,800.02,-0.6299963,-28.7133
9/4/2025 13:26,6.652989,-26.3119,-144.232,2.896825,28.9712,45.7854,147.88,172.469,0.08185827,6762.245,0.9987453,0.112105,17.5357,0,84,794.8,-0.5047102,-19.3815
9/4/2025 13:30,7.593273,-81.954,-107.363,10.2738,109.783,172.5455,0.0549451,0.05973596,0,18200000,0.9980377,3.88E-05,20.801,0,84,793.9075,-0.7144041,-55.0493
9/4/2025 13:34,7.82579,-96.86947,-73.1309,9.74985,109.961,172.734,0.0549451,0.05617513,0,18200000,0.997335,3.65E-05,23.8536,0.018,84,797.2527,-0.767781,-58.8925
9/4/2025 13:38,7.80501,-96.19951,-48.271,9.390116,109.064,171.468,0.0549451,0.0542445,0,18200000,0.996873,3.53E-05,25.67619,0.045,84,800.4555,-0.8330107,-63.5791
9/4/2025 13:42,7.70222,-90.34395,-30.9833,9.118788,108.216,170.0998,0.0549451,0.0529172,0,18200000,0.996515,3.44E-05,27.0064,0.072,84,802.3156,-0.868873,-64.1213
9/4/2025 13:46,7.790131,-95.8705,-29.5599,8.974522,107.2781,168.67,0.0549451,0.052456,0,18200000,0.9963823,3.41E-05,27.4843,0.099,84,803.2757,-0.86094,-63.4991
9/4/2025 13:50,7.742997,-93.0381,-19.2173,9.021374,107.987,170.008,0.0549451,0.0522911,0,18200000,0.9963339,3.40E-05,27.6573,0.117,84,804.5808,-0.8799448,-63.0617
9/4/2025 13:54,7.62942,-86.1311,-47.17904,8.859121,106.2168,167.415,0.0549451,0.05212133,0,18200000,0.9962834,3.39E-05,27.8364,0.144,84,805.7734,-0.9067154,-65.21572
9/4/2025 13:58,7.64471,-86.96794,-39.18248,8.856543,105.724,166.466,0.0549451,0.05245113,0,18200000,0.996381,3.41E-05,27.4894,0.135,84,804.4008,-0.897298,-63.6137
9/4/2025 14:02,7.61125,-84.84125,-33.0337,8.813242,104.913,164.933,0.0549451,0.052718,0,18200000,0.9964582,3.43E-05,27.2118,0.126,84,802.7581,-0.8710928,-61.6812
9/4/2025 14:06,7.57421,-82.5047,-27.8409,8.833757,104.872,164.653,0.0549451,0.0529658,0,18200000,0.9965286,3.44E-05,26.9565,0.099,84,801.3406,-0.8475065,-59.8667
9/4/2025 14:10,7.536336,-80.1253,-23.5255,8.844653,104.71,164.224,0.0549451,0.0532034,0,18200000,0.9965949,3.46E-05,26.7139,0.099,84,800.1329,-0.8255625,-58.38813
9/4/2025 14:14,7.498,-77.72208,-19.3651,8.82641,104.202,163.263,0.0549451,0.05343929,0,18200000,0.9966597,3.47E-05,26.4752,0.099,84,798.9929,-0.804028,-56.9405
9/4/2025 14:18,7.46144,-75.43326,-16.0606,8.848107,104.157,163.061,0.0549451,0.0536692,0,18200000,0.9967217,3.49E-05,26.2446,0.09,84,798.0178,-0.7892771,-55.8224
9/4/2025 14:22,7.4255,-73.18497,-13.1376,8.873938,104.164,162.931,0.0549451,0.05390142,0,18200000,0.9967833,3.50E-05,26.0137,0.081,84,797.005,-0.769359,-54.40654
9/4/2025 14:26,7.38838,-70.86992,-10.5174,8.878021,103.899,162.41,0.0549451,0.0541309,0,18200000,0.9968433,3.52E-05,25.78749,0.072,84,796.1651,-0.751802,-53.32076
9/4/2025 14:30,7.34472,-68.16626,-9.220417,8.887339,103.739,162.051,0.0549451,0.05433608,0,18200000,0.996896,3.53E-05,25.5868,0.072,84,795.348,-0.7388363,-52.3285
9/4/2025 14:34,7.25592,-62.70647,-5.527313,8.901195,103.653,161.589,0.0549451,0.0546146,0,18200000,0.9969663,3.55E-05,25.3168,0.072,84,793.3974,-0.699937,-49.6567
9/4/2025 14:38,7.164586,-57.1108,-3.8107,8.904786,103.421,161.045,0.0549451,0.0548538,0,18200000,0.997026,3.57E-05,25.08714,0.063,84,792.1973,-0.678373,-48.1364
9/4/2025 14:42,7.07802,-51.81551,-2.33012,8.927312,103.418,160.878,0.0549451,0.05508081,0,18200000,0.997081,3.58E-05,24.871,0.054,84,791.117,-0.6613474,-46.85828
9/4/2025 14:46,7.01894,-48.1987,-1.15472,8.923277,103.13,160.3006,0.0549451,0.05528127,0,18200000,0.997129,3.59E-05,24.6816,0.045,84,790.2321,-0.6459303,-45.7702
9/4/2025 14:50,6.95665,-44.5724,0.299637,8.94773,103.169,160.251,0.0549451,0.0554761,0,18200000,0.997175,3.61E-05,24.4988,0.054,84,789.452,-0.6316652,-44.8242
9/4/2025 14:54,6.99365,-46.6919,-6.669338,8.96706,103.152,160.1103,0.0549451,0.0556712,0,18200000,0.997221,3.62E-05,24.31712,0.045,84,788.657,-0.613112,-43.6029
9/4/2025 14:58,6.912694,-41.97359,-1.40029,8.967718,102.968,159.722,0.0549451,0.05583225,0,18200000,0.9972578,3.63E-05,24.168,0.045,84,787.9595,-0.599411,-42.6333
9/4/2025 15:02,6.876613,-39.8612,1.05781,8.978826,102.895,159.521,0.0549451,0.0559935,0,18200000,0.9972945,3.64E-05,24.0197,0.045,84,787.3369,-0.5929899,-42.177
9/4/2025 15:06,6.84335,-37.9157,2.7625,8.995328,102.909,159.45,0.0549451,0.05614124,0,18200000,0.997328,3.65E-05,23.8845,0.036,84,786.7069,-0.578289,-41.2162
9/4/2025 15:10,6.82178,-36.6497,4.51965,8.9973,102.746,159.1206,0.0549451,0.0562895,0,18200000,0.9973608,3.66E-05,23.74952,0.045,84,786.1668,-0.573675,-40.7415
9/4/2025 15:14,6.797732,-35.24065,5.945389,9.00839,102.686,158.95,0.0549451,0.0564393,0,18200000,0.9973939,3.67E-05,23.6139,0.036,84,785.612,-0.5651245,-40.1341
9/4/2025 15:16,6.78457,-34.47056,5.537693,9.002288,102.531,158.652,0.0549451,0.0565174,0,18200000,0.9974111,3.67E-05,23.54346,0.036,84,785.2367,-0.55606,-57.68063
,,,,,,,,,,,,,,,,,,